PE IR       SUBTECH     SPECTRUM    ASCII       PEDS        4.00        
   -1
p2_abs_unf.asc
14/08/15
13:04:27.00
14/08/21
12:05:21.00
thompson.2166
Co-added spectrum 5 at 603, 643 (Image Marker 1)
700.000000
#HDR
-1
-1
#GR
cm-1
%T
1.0
0.0
4000.000000
-2.000000
1651
8
97.999215
80.714707
#DATA
4000.000000	93.283608
3998.000000	93.168132
3996.000000	93.070793
3994.000000	92.998405
3992.000000	92.948183
3990.000000	92.918434
3988.000000	92.897529
3986.000000	92.881866
3984.000000	92.877301
3982.000000	92.870033
3980.000000	92.836944
3978.000000	92.769495
3976.000000	92.670232
3974.000000	92.547723
3972.000000	92.422699
3970.000000	92.319641
3968.000000	92.241977
3966.000000	92.191169
3964.000000	92.187244
3962.000000	92.242026
3960.000000	92.342344
3958.000000	92.465701
3956.000000	92.591868
3954.000000	92.698738
3952.000000	92.774204
3950.000000	92.821675
3948.000000	92.836252
3946.000000	92.813027
3944.000000	92.764933
3942.000000	92.708645
3940.000000	92.654026
3938.000000	92.612800
3936.000000	92.601564
3934.000000	92.625059
3932.000000	92.676769
3930.000000	92.754785
3928.000000	92.854995
3926.000000	92.968789
3924.000000	93.088203
3922.000000	93.207289
3920.000000	93.319696
3918.000000	93.416675
3916.000000	93.494117
3914.000000	93.549559
3912.000000	93.579857
3910.000000	93.586984
3908.000000	93.576230
3906.000000	93.549309
3904.000000	93.504010
3902.000000	93.436922
3900.000000	93.356464
3898.000000	93.287681
3896.000000	93.240162
3894.000000	93.205179
3892.000000	93.171779
3890.000000	93.145535
3888.000000	93.147107
3886.000000	93.176508
3884.000000	93.212527
3882.000000	93.229383
3880.000000	93.218762
3878.000000	93.201859
3876.000000	93.210466
3874.000000	93.245039
3872.000000	93.273738
3870.000000	93.272402
3868.000000	93.252761
3866.000000	93.246963
3864.000000	93.260871
3862.000000	93.272152
3860.000000	93.256458
3858.000000	93.198194
3856.000000	93.111648
3854.000000	93.030527
3852.000000	92.985933
3850.000000	92.973789
3848.000000	92.963679
3846.000000	92.946653
3844.000000	92.933410
3842.000000	92.933132
3840.000000	92.938901
3838.000000	92.944631
3836.000000	92.948534
3834.000000	92.942318
3832.000000	92.931365
3830.000000	92.920479
3828.000000	92.899797
3826.000000	92.868115
3824.000000	92.842352
3822.000000	92.830219
3820.000000	92.820279
3818.000000	92.802745
3816.000000	92.781002
3814.000000	92.761413
3812.000000	92.755276
3810.000000	92.763747
3808.000000	92.774380
3806.000000	92.782601
3804.000000	92.792412
3802.000000	92.797081
3800.000000	92.793100
3798.000000	92.793950
3796.000000	92.809948
3794.000000	92.841227
3792.000000	92.881359
3790.000000	92.922700
3788.000000	92.955154
3786.000000	92.975787
3784.000000	92.988079
3782.000000	92.995254
3780.000000	92.997146
3778.000000	92.984733
3776.000000	92.959363
3774.000000	92.937502
3772.000000	92.934774
3770.000000	92.957594
3768.000000	93.015518
3766.000000	93.125651
3764.000000	93.282334
3762.000000	93.465068
3760.000000	93.664169
3758.000000	93.867766
3756.000000	94.058848
3754.000000	94.233058
3752.000000	94.383362
3750.000000	94.474058
3748.000000	94.463459
3746.000000	94.372167
3744.000000	94.241570
3742.000000	94.110295
3740.000000	93.996959
3738.000000	93.904288
3736.000000	93.838406
3734.000000	93.799976
3732.000000	93.783419
3730.000000	93.805891
3728.000000	93.859717
3726.000000	93.906943
3724.000000	93.923811
3722.000000	93.911713
3720.000000	93.866417
3718.000000	93.798492
3716.000000	93.736222
3714.000000	93.686698
3712.000000	93.642479
3710.000000	93.608107
3708.000000	93.593455
3706.000000	93.601517
3704.000000	93.628663
3702.000000	93.657707
3700.000000	93.675670
3698.000000	93.687226
3696.000000	93.694525
3694.000000	93.694640
3692.000000	93.682815
3690.000000	93.647336
3688.000000	93.576452
3686.000000	93.487263
3684.000000	93.399843
3682.000000	93.314226
3680.000000	93.225639
3678.000000	93.139175
3676.000000	93.051657
3674.000000	92.947167
3672.000000	92.843681
3670.000000	92.758854
3668.000000	92.684827
3666.000000	92.612336
3664.000000	92.538233
3662.000000	92.449875
3660.000000	92.346498
3658.000000	92.251092
3656.000000	92.177837
3654.000000	92.117804
3652.000000	92.061746
3650.000000	92.007375
3648.000000	91.947033
3646.000000	91.897083
3644.000000	91.863453
3642.000000	91.823689
3640.000000	91.767365
3638.000000	91.695871
3636.000000	91.607457
3634.000000	91.499464
3632.000000	91.376310
3630.000000	91.235083
3628.000000	91.082124
3626.000000	90.948269
3624.000000	90.827761
3622.000000	90.705715
3620.000000	90.579617
3618.000000	90.456705
3616.000000	90.346580
3614.000000	90.248056
3612.000000	90.154628
3610.000000	90.059546
3608.000000	89.962314
3606.000000	89.871675
3604.000000	89.795380
3602.000000	89.731457
3600.000000	89.672423
3598.000000	89.611650
3596.000000	89.542498
3594.000000	89.459624
3592.000000	89.366197
3590.000000	89.271754
3588.000000	89.180458
3586.000000	89.090033
3584.000000	88.996356
3582.000000	88.901685
3580.000000	88.824251
3578.000000	88.774218
3576.000000	88.734868
3574.000000	88.685378
3572.000000	88.617707
3570.000000	88.535947
3568.000000	88.454052
3566.000000	88.384017
3564.000000	88.316696
3562.000000	88.241142
3560.000000	88.169822
3558.000000	88.116146
3556.000000	88.079137
3554.000000	88.050965
3552.000000	88.023456
3550.000000	87.989105
3548.000000	87.945954
3546.000000	87.897044
3544.000000	87.837957
3542.000000	87.765999
3540.000000	87.689432
3538.000000	87.618217
3536.000000	87.557421
3534.000000	87.502860
3532.000000	87.447914
3530.000000	87.395492
3528.000000	87.354585
3526.000000	87.323099
3524.000000	87.293179
3522.000000	87.268337
3520.000000	87.247008
3518.000000	87.220137
3516.000000	87.191443
3514.000000	87.163829
3512.000000	87.125357
3510.000000	87.064002
3508.000000	86.984564
3506.000000	86.901576
3504.000000	86.821463
3502.000000	86.752576
3500.000000	86.705435
3498.000000	86.676740
3496.000000	86.655008
3494.000000	86.636232
3492.000000	86.621358
3490.000000	86.603544
3488.000000	86.574085
3486.000000	86.528395
3484.000000	86.462053
3482.000000	86.374074
3480.000000	86.276664
3478.000000	86.191990
3476.000000	86.126035
3474.000000	86.071011
3472.000000	86.030122
3470.000000	86.008757
3468.000000	86.002268
3466.000000	86.010627
3464.000000	86.037736
3462.000000	86.078619
3460.000000	86.128369
3458.000000	86.191202
3456.000000	86.261356
3454.000000	86.325149
3452.000000	86.378239
3450.000000	86.412452
3448.000000	86.421804
3446.000000	86.411823
3444.000000	86.390268
3442.000000	86.358443
3440.000000	86.316830
3438.000000	86.270253
3436.000000	86.225431
3434.000000	86.195861
3432.000000	86.194348
3430.000000	86.223226
3428.000000	86.280732
3426.000000	86.360847
3424.000000	86.452832
3422.000000	86.551678
3420.000000	86.657896
3418.000000	86.762665
3416.000000	86.848934
3414.000000	86.908262
3412.000000	86.942644
3410.000000	86.958781
3408.000000	86.967184
3406.000000	86.978896
3404.000000	87.002235
3402.000000	87.050383
3400.000000	87.136652
3398.000000	87.253094
3396.000000	87.378624
3394.000000	87.499522
3392.000000	87.609105
3390.000000	87.706010
3388.000000	87.790068
3386.000000	87.847804
3384.000000	87.867345
3382.000000	87.860725
3380.000000	87.853229
3378.000000	87.860409
3376.000000	87.882523
3374.000000	87.919282
3372.000000	87.968372
3370.000000	88.024343
3368.000000	88.091460
3366.000000	88.172935
3364.000000	88.262980
3362.000000	88.348274
3360.000000	88.419828
3358.000000	88.478836
3356.000000	88.526813
3354.000000	88.565100
3352.000000	88.592309
3350.000000	88.607499
3348.000000	88.617379
3346.000000	88.634176
3344.000000	88.664518
3342.000000	88.702664
3340.000000	88.742910
3338.000000	88.789556
3336.000000	88.855206
3334.000000	88.945756
3332.000000	89.047421
3330.000000	89.137738
3328.000000	89.204348
3326.000000	89.261581
3324.000000	89.336649
3322.000000	89.428526
3320.000000	89.507911
3318.000000	89.556420
3316.000000	89.580919
3314.000000	89.601151
3312.000000	89.631491
3310.000000	89.666089
3308.000000	89.687094
3306.000000	89.693510
3304.000000	89.706691
3302.000000	89.736508
3300.000000	89.773613
3298.000000	89.810082
3296.000000	89.840697
3294.000000	89.862893
3292.000000	89.883555
3290.000000	89.904381
3288.000000	89.913855
3286.000000	89.909735
3284.000000	89.906590
3282.000000	89.916728
3280.000000	89.942790
3278.000000	89.986004
3276.000000	90.040990
3274.000000	90.099606
3272.000000	90.168475
3270.000000	90.256879
3268.000000	90.355981
3266.000000	90.451878
3264.000000	90.537487
3262.000000	90.608339
3260.000000	90.668206
3258.000000	90.724338
3256.000000	90.773254
3254.000000	90.809637
3252.000000	90.838004
3250.000000	90.863556
3248.000000	90.886157
3246.000000	90.907850
3244.000000	90.936548
3242.000000	90.978212
3240.000000	91.035807
3238.000000	91.113540
3236.000000	91.203710
3234.000000	91.292705
3232.000000	91.378615
3230.000000	91.461589
3228.000000	91.537568
3226.000000	91.597341
3224.000000	91.628560
3222.000000	91.626252
3220.000000	91.594586
3218.000000	91.543762
3216.000000	91.486070
3214.000000	91.433052
3212.000000	91.395053
3210.000000	91.376799
3208.000000	91.379936
3206.000000	91.406350
3204.000000	91.454203
3202.000000	91.522118
3200.000000	91.610187
3198.000000	91.716604
3196.000000	91.834122
3194.000000	91.946465
3192.000000	92.040808
3190.000000	92.116957
3188.000000	92.183161
3186.000000	92.246205
3184.000000	92.299955
3182.000000	92.333318
3180.000000	92.340179
3178.000000	92.327980
3176.000000	92.316622
3174.000000	92.318533
3172.000000	92.330925
3170.000000	92.343355
3168.000000	92.350319
3166.000000	92.361270
3164.000000	92.386348
3162.000000	92.419221
3160.000000	92.447106
3158.000000	92.469458
3156.000000	92.499402
3154.000000	92.545207
3152.000000	92.600344
3150.000000	92.658058
3148.000000	92.715804
3146.000000	92.773465
3144.000000	92.834520
3142.000000	92.893287
3140.000000	92.930936
3138.000000	92.934350
3136.000000	92.912227
3134.000000	92.881821
3132.000000	92.846021
3130.000000	92.805538
3128.000000	92.774454
3126.000000	92.765074
3124.000000	92.781014
3122.000000	92.825242
3120.000000	92.894788
3118.000000	92.977205
3116.000000	93.068204
3114.000000	93.164905
3112.000000	93.254488
3110.000000	93.322734
3108.000000	93.363043
3106.000000	93.381877
3104.000000	93.388979
3102.000000	93.392389
3100.000000	93.395536
3098.000000	93.392440
3096.000000	93.382785
3094.000000	93.377711
3092.000000	93.387032
3090.000000	93.414471
3088.000000	93.457083
3086.000000	93.506386
3084.000000	93.556737
3082.000000	93.613677
3080.000000	93.685079
3078.000000	93.765213
3076.000000	93.843930
3074.000000	93.916004
3072.000000	93.973955
3070.000000	94.014337
3068.000000	94.039740
3066.000000	94.049555
3064.000000	94.042817
3062.000000	94.021114
3060.000000	93.984567
3058.000000	93.934984
3056.000000	93.877190
3054.000000	93.814042
3052.000000	93.747558
3050.000000	93.680263
3048.000000	93.614362
3046.000000	93.554756
3044.000000	93.511627
3042.000000	93.492897
3040.000000	93.494815
3038.000000	93.513480
3036.000000	93.555621
3034.000000	93.624934
3032.000000	93.714645
3030.000000	93.817866
3028.000000	93.925281
3026.000000	94.024182
3024.000000	94.115279
3022.000000	94.201829
3020.000000	94.272727
3018.000000	94.317170
3016.000000	94.334560
3014.000000	94.327539
3012.000000	94.298027
3010.000000	94.254230
3008.000000	94.204345
3006.000000	94.150569
3004.000000	94.103474
3002.000000	94.070879
3000.000000	94.048364
2998.000000	94.036005
2996.000000	94.040156
2994.000000	94.056437
2992.000000	94.074574
2990.000000	94.089280
2988.000000	94.094901
2986.000000	94.088474
2984.000000	94.071297
2982.000000	94.043654
2980.000000	94.004450
2978.000000	93.954731
2976.000000	93.901951
2974.000000	93.850765
2972.000000	93.796363
2970.000000	93.737614
2968.000000	93.682851
2966.000000	93.638303
2964.000000	93.602637
2962.000000	93.578353
2960.000000	93.567704
2958.000000	93.564064
2956.000000	93.567365
2954.000000	93.587841
2952.000000	93.624857
2950.000000	93.671146
2948.000000	93.729236
2946.000000	93.799521
2944.000000	93.870615
2942.000000	93.934896
2940.000000	93.990316
2938.000000	94.030994
2936.000000	94.051818
2934.000000	94.052708
2932.000000	94.036397
2930.000000	94.004250
2928.000000	93.958232
2926.000000	93.901895
2924.000000	93.837844
2922.000000	93.772304
2920.000000	93.715316
2918.000000	93.670084
2916.000000	93.630370
2914.000000	93.586124
2912.000000	93.532981
2910.000000	93.486017
2908.000000	93.463473
2906.000000	93.460582
2904.000000	93.459897
2902.000000	93.454465
2900.000000	93.448502
2898.000000	93.447487
2896.000000	93.459813
2894.000000	93.481032
2892.000000	93.488991
2890.000000	93.481023
2888.000000	93.476978
2886.000000	93.485661
2884.000000	93.499705
2882.000000	93.513849
2880.000000	93.530824
2878.000000	93.554242
2876.000000	93.584502
2874.000000	93.615305
2872.000000	93.634219
2870.000000	93.632881
2868.000000	93.617337
2866.000000	93.599666
2864.000000	93.576344
2862.000000	93.533923
2860.000000	93.473561
2858.000000	93.410958
2856.000000	93.357802
2854.000000	93.316752
2852.000000	93.284201
2850.000000	93.250753
2848.000000	93.213912
2846.000000	93.183393
2844.000000	93.164595
2842.000000	93.150740
2840.000000	93.135218
2838.000000	93.119249
2836.000000	93.103876
2834.000000	93.088112
2832.000000	93.078832
2830.000000	93.081125
2828.000000	93.086574
2826.000000	93.086751
2824.000000	93.081104
2822.000000	93.069797
2820.000000	93.055979
2818.000000	93.045781
2816.000000	93.032919
2814.000000	93.006285
2812.000000	92.970062
2810.000000	92.934319
2808.000000	92.899795
2806.000000	92.864782
2804.000000	92.827420
2802.000000	92.786047
2800.000000	92.748712
2798.000000	92.721231
2796.000000	92.699117
2794.000000	92.679964
2792.000000	92.666504
2790.000000	92.660626
2788.000000	92.660308
2786.000000	92.661851
2784.000000	92.659194
2782.000000	92.647477
2780.000000	92.632183
2778.000000	92.619511
2776.000000	92.607281
2774.000000	92.595153
2772.000000	92.584530
2770.000000	92.575507
2768.000000	92.571417
2766.000000	92.574696
2764.000000	92.581314
2762.000000	92.582915
2760.000000	92.578818
2758.000000	92.576596
2756.000000	92.574623
2754.000000	92.567801
2752.000000	92.557905
2750.000000	92.545700
2748.000000	92.529330
2746.000000	92.509842
2744.000000	92.488009
2742.000000	92.460466
2740.000000	92.426729
2738.000000	92.393750
2736.000000	92.364678
2734.000000	92.332231
2732.000000	92.297079
2730.000000	92.270716
2728.000000	92.259080
2726.000000	92.261777
2724.000000	92.274636
2722.000000	92.293334
2720.000000	92.316159
2718.000000	92.343476
2716.000000	92.375345
2714.000000	92.405225
2712.000000	92.425312
2710.000000	92.433966
2708.000000	92.435731
2706.000000	92.435532
2704.000000	92.432237
2702.000000	92.424188
2700.000000	92.413448
2698.000000	92.402203
2696.000000	92.391515
2694.000000	92.385734
2692.000000	92.387224
2690.000000	92.390478
2688.000000	92.394765
2686.000000	92.406674
2684.000000	92.424171
2682.000000	92.443228
2680.000000	92.472582
2678.000000	92.515629
2676.000000	92.561926
2674.000000	92.606019
2672.000000	92.646783
2670.000000	92.678435
2668.000000	92.699590
2666.000000	92.714544
2664.000000	92.716918
2662.000000	92.697021
2660.000000	92.665931
2658.000000	92.638229
2656.000000	92.609984
2654.000000	92.576104
2652.000000	92.541572
2650.000000	92.511758
2648.000000	92.493376
2646.000000	92.493232
2644.000000	92.504470
2642.000000	92.512724
2640.000000	92.513881
2638.000000	92.512601
2636.000000	92.512232
2634.000000	92.508192
2632.000000	92.493461
2630.000000	92.468074
2628.000000	92.432503
2626.000000	92.389165
2624.000000	92.342053
2622.000000	92.294092
2620.000000	92.254040
2618.000000	92.230860
2616.000000	92.221713
2614.000000	92.212607
2612.000000	92.199060
2610.000000	92.188315
2608.000000	92.183770
2606.000000	92.185040
2604.000000	92.185991
2602.000000	92.176418
2600.000000	92.154340
2598.000000	92.128653
2596.000000	92.106357
2594.000000	92.084398
2592.000000	92.059816
2590.000000	92.033476
2588.000000	92.009914
2586.000000	91.994741
2584.000000	91.988181
2582.000000	91.985838
2580.000000	91.983785
2578.000000	91.986284
2576.000000	92.002893
2574.000000	92.036518
2572.000000	92.075843
2570.000000	92.106432
2568.000000	92.125665
2566.000000	92.136856
2564.000000	92.143166
2562.000000	92.143799
2560.000000	92.131028
2558.000000	92.099998
2556.000000	92.055954
2554.000000	92.013648
2552.000000	91.984722
2550.000000	91.965158
2548.000000	91.947414
2546.000000	91.934388
2544.000000	91.932616
2542.000000	91.939175
2540.000000	91.944344
2538.000000	91.940603
2536.000000	91.924295
2534.000000	91.897105
2532.000000	91.864372
2530.000000	91.827117
2528.000000	91.780706
2526.000000	91.728086
2524.000000	91.682536
2522.000000	91.651903
2520.000000	91.630124
2518.000000	91.613607
2516.000000	91.609819
2514.000000	91.620083
2512.000000	91.639854
2510.000000	91.667897
2508.000000	91.698131
2506.000000	91.720328
2504.000000	91.737333
2502.000000	91.760278
2500.000000	91.786582
2498.000000	91.805406
2496.000000	91.818160
2494.000000	91.832073
2492.000000	91.847015
2490.000000	91.865681
2488.000000	91.892753
2486.000000	91.925836
2484.000000	91.960955
2482.000000	91.994408
2480.000000	92.026439
2478.000000	92.057441
2476.000000	92.083972
2474.000000	92.105493
2472.000000	92.121335
2470.000000	92.128859
2468.000000	92.127032
2466.000000	92.115779
2464.000000	92.097683
2462.000000	92.079750
2460.000000	92.064230
2458.000000	92.045447
2456.000000	92.023484
2454.000000	92.006512
2452.000000	91.999215
2450.000000	92.004438
2448.000000	92.026452
2446.000000	92.056308
2444.000000	92.079687
2442.000000	92.097624
2440.000000	92.118236
2438.000000	92.142389
2436.000000	92.162106
2434.000000	92.169449
2432.000000	92.161231
2430.000000	92.142334
2428.000000	92.124309
2426.000000	92.111351
2424.000000	92.098872
2422.000000	92.087066
2420.000000	92.080757
2418.000000	92.081701
2416.000000	92.090201
2414.000000	92.100903
2412.000000	92.104434
2410.000000	92.104352
2408.000000	92.113572
2406.000000	92.134180
2404.000000	92.156839
2402.000000	92.171267
2400.000000	92.176275
2398.000000	92.184151
2396.000000	92.210690
2394.000000	92.260474
2392.000000	92.319693
2390.000000	92.371080
2388.000000	92.417587
2386.000000	92.480898
2384.000000	92.586384
2382.000000	92.745050
2380.000000	92.943300
2378.000000	93.160375
2376.000000	93.379739
2374.000000	93.580872
2372.000000	93.738666
2370.000000	93.835720
2368.000000	93.861783
2366.000000	93.797779
2364.000000	93.632782
2362.000000	93.385870
2360.000000	93.081805
2358.000000	92.769341
2356.000000	92.531484
2354.000000	92.400837
2352.000000	92.363224
2350.000000	92.401219
2348.000000	92.505398
2346.000000	92.658283
2344.000000	92.843216
2342.000000	93.064450
2340.000000	93.285364
2338.000000	93.439492
2336.000000	93.514081
2334.000000	93.536316
2332.000000	93.521301
2330.000000	93.466594
2328.000000	93.379642
2326.000000	93.261331
2324.000000	93.116783
2322.000000	92.981438
2320.000000	92.872269
2318.000000	92.781825
2316.000000	92.708400
2314.000000	92.665136
2312.000000	92.664347
2310.000000	92.706555
2308.000000	92.777855
2306.000000	92.858535
2304.000000	92.941999
2302.000000	93.030131
2300.000000	93.122228
2298.000000	93.215973
2296.000000	93.303080
2294.000000	93.368896
2292.000000	93.405745
2290.000000	93.421088
2288.000000	93.428558
2286.000000	93.437589
2284.000000	93.453755
2282.000000	93.476613
2280.000000	93.501403
2278.000000	93.532133
2276.000000	93.579937
2274.000000	93.649607
2272.000000	93.734348
2270.000000	93.818065
2268.000000	93.886899
2266.000000	93.936750
2264.000000	93.971079
2262.000000	93.996191
2260.000000	94.013972
2258.000000	94.023497
2256.000000	94.028367
2254.000000	94.036238
2252.000000	94.052268
2250.000000	94.074692
2248.000000	94.098503
2246.000000	94.120860
2244.000000	94.138396
2242.000000	94.146711
2240.000000	94.148874
2238.000000	94.154182
2236.000000	94.164829
2234.000000	94.178505
2232.000000	94.199008
2230.000000	94.230107
2228.000000	94.276013
2226.000000	94.342388
2224.000000	94.425357
2222.000000	94.511241
2220.000000	94.590108
2218.000000	94.664859
2216.000000	94.741225
2214.000000	94.817813
2212.000000	94.889239
2210.000000	94.951449
2208.000000	95.001275
2206.000000	95.036485
2204.000000	95.058857
2202.000000	95.075050
2200.000000	95.092470
2198.000000	95.114874
2196.000000	95.141721
2194.000000	95.166379
2192.000000	95.185077
2190.000000	95.209514
2188.000000	95.252076
2186.000000	95.310089
2184.000000	95.375659
2182.000000	95.443170
2180.000000	95.508665
2178.000000	95.574539
2176.000000	95.646389
2174.000000	95.722073
2172.000000	95.793888
2170.000000	95.858039
2168.000000	95.913088
2166.000000	95.958394
2164.000000	95.995461
2162.000000	96.021461
2160.000000	96.035597
2158.000000	96.045422
2156.000000	96.056033
2154.000000	96.067414
2152.000000	96.080477
2150.000000	96.097877
2148.000000	96.118365
2146.000000	96.143194
2144.000000	96.177799
2142.000000	96.216779
2140.000000	96.252888
2138.000000	96.286483
2136.000000	96.317266
2134.000000	96.342161
2132.000000	96.359377
2130.000000	96.371434
2128.000000	96.379925
2126.000000	96.391293
2124.000000	96.412778
2122.000000	96.435425
2120.000000	96.450315
2118.000000	96.464636
2116.000000	96.489483
2114.000000	96.528110
2112.000000	96.576076
2110.000000	96.625014
2108.000000	96.670760
2106.000000	96.719370
2104.000000	96.778505
2102.000000	96.848889
2100.000000	96.928669
2098.000000	97.013629
2096.000000	97.095040
2094.000000	97.165759
2092.000000	97.222469
2090.000000	97.265944
2088.000000	97.299308
2086.000000	97.320352
2084.000000	97.323445
2082.000000	97.309891
2080.000000	97.290063
2078.000000	97.276437
2076.000000	97.278655
2074.000000	97.297136
2072.000000	97.324400
2070.000000	97.359235
2068.000000	97.403653
2066.000000	97.452632
2064.000000	97.498504
2062.000000	97.538887
2060.000000	97.577007
2058.000000	97.613666
2056.000000	97.647812
2054.000000	97.678218
2052.000000	97.704021
2050.000000	97.732027
2048.000000	97.767813
2046.000000	97.806799
2044.000000	97.841550
2042.000000	97.865579
2040.000000	97.875275
2038.000000	97.873605
2036.000000	97.866985
2034.000000	97.856638
2032.000000	97.842271
2030.000000	97.824788
2028.000000	97.803347
2026.000000	97.783237
2024.000000	97.774035
2022.000000	97.775960
2020.000000	97.777859
2018.000000	97.769645
2016.000000	97.754306
2014.000000	97.741436
2012.000000	97.733127
2010.000000	97.722488
2008.000000	97.705317
2006.000000	97.685769
2004.000000	97.670683
2002.000000	97.667881
2000.000000	97.677079
1998.000000	97.685152
1996.000000	97.687061
1994.000000	97.691481
1992.000000	97.697259
1990.000000	97.694871
1988.000000	97.685981
1986.000000	97.675566
1984.000000	97.663352
1982.000000	97.650104
1980.000000	97.638663
1978.000000	97.629489
1976.000000	97.625536
1974.000000	97.631465
1972.000000	97.643078
1970.000000	97.653342
1968.000000	97.661605
1966.000000	97.667980
1964.000000	97.670005
1962.000000	97.667245
1960.000000	97.658316
1958.000000	97.640180
1956.000000	97.614696
1954.000000	97.586495
1952.000000	97.559699
1950.000000	97.535895
1948.000000	97.515550
1946.000000	97.500064
1944.000000	97.489891
1942.000000	97.488320
1940.000000	97.495449
1938.000000	97.505613
1936.000000	97.517727
1934.000000	97.532642
1932.000000	97.547987
1930.000000	97.559691
1928.000000	97.568239
1926.000000	97.575650
1924.000000	97.583660
1922.000000	97.596784
1920.000000	97.614380
1918.000000	97.627846
1916.000000	97.632238
1914.000000	97.636339
1912.000000	97.645755
1910.000000	97.654425
1908.000000	97.654286
1906.000000	97.639866
1904.000000	97.613092
1902.000000	97.584536
1900.000000	97.565812
1898.000000	97.557406
1896.000000	97.550600
1894.000000	97.539895
1892.000000	97.529241
1890.000000	97.525230
1888.000000	97.525824
1886.000000	97.523273
1884.000000	97.513210
1882.000000	97.498660
1880.000000	97.484887
1878.000000	97.469921
1876.000000	97.447993
1874.000000	97.417565
1872.000000	97.380659
1870.000000	97.342530
1868.000000	97.312615
1866.000000	97.288214
1864.000000	97.256507
1862.000000	97.220214
1860.000000	97.193738
1858.000000	97.187153
1856.000000	97.200671
1854.000000	97.227931
1852.000000	97.258702
1850.000000	97.290480
1848.000000	97.326766
1846.000000	97.366964
1844.000000	97.405566
1842.000000	97.430521
1840.000000	97.436595
1838.000000	97.429734
1836.000000	97.417995
1834.000000	97.400941
1832.000000	97.373717
1830.000000	97.335666
1828.000000	97.288692
1826.000000	97.240571
1824.000000	97.198271
1822.000000	97.162258
1820.000000	97.130957
1818.000000	97.104813
1816.000000	97.085248
1814.000000	97.074668
1812.000000	97.075355
1810.000000	97.085057
1808.000000	97.100924
1806.000000	97.122313
1804.000000	97.146596
1802.000000	97.167609
1800.000000	97.181360
1798.000000	97.190895
1796.000000	97.197263
1794.000000	97.197998
1792.000000	97.193956
1790.000000	97.183064
1788.000000	97.163305
1786.000000	97.143216
1784.000000	97.131330
1782.000000	97.128059
1780.000000	97.130970
1778.000000	97.143383
1776.000000	97.170064
1774.000000	97.213077
1772.000000	97.274083
1770.000000	97.342020
1768.000000	97.405320
1766.000000	97.467287
1764.000000	97.529745
1762.000000	97.590909
1760.000000	97.644200
1758.000000	97.680686
1756.000000	97.699450
1754.000000	97.711788
1752.000000	97.729536
1750.000000	97.753165
1748.000000	97.781173
1746.000000	97.811069
1744.000000	97.837202
1742.000000	97.863811
1740.000000	97.898230
1738.000000	97.938486
1736.000000	97.974548
1734.000000	97.996172
1732.000000	97.999215
1730.000000	97.990533
1728.000000	97.973530
1726.000000	97.952048
1724.000000	97.927269
1722.000000	97.896322
1720.000000	97.862543
1718.000000	97.835492
1716.000000	97.817868
1714.000000	97.804146
1712.000000	97.799079
1710.000000	97.801104
1708.000000	97.801427
1706.000000	97.795365
1704.000000	97.782227
1702.000000	97.765582
1700.000000	97.745128
1698.000000	97.713689
1696.000000	97.678795
1694.000000	97.645163
1692.000000	97.615357
1690.000000	97.596335
1688.000000	97.588702
1686.000000	97.584628
1684.000000	97.575088
1682.000000	97.556901
1680.000000	97.530394
1678.000000	97.494433
1676.000000	97.448567
1674.000000	97.388403
1672.000000	97.314790
1670.000000	97.237770
1668.000000	97.167689
1666.000000	97.112113
1664.000000	97.072193
1662.000000	97.041821
1660.000000	97.010706
1658.000000	96.976202
1656.000000	96.936822
1654.000000	96.883785
1652.000000	96.800461
1650.000000	96.686280
1648.000000	96.547357
1646.000000	96.385589
1644.000000	96.208314
1642.000000	96.025596
1640.000000	95.841432
1638.000000	95.655054
1636.000000	95.467742
1634.000000	95.286607
1632.000000	95.112525
1630.000000	94.940922
1628.000000	94.769610
1626.000000	94.597813
1624.000000	94.427598
1622.000000	94.267517
1620.000000	94.130542
1618.000000	94.024682
1616.000000	93.952111
1614.000000	93.916148
1612.000000	93.921836
1610.000000	93.971468
1608.000000	94.064838
1606.000000	94.192795
1604.000000	94.343758
1602.000000	94.506628
1600.000000	94.667523
1598.000000	94.815777
1596.000000	94.941184
1594.000000	95.031855
1592.000000	95.080863
1590.000000	95.091514
1588.000000	95.067040
1586.000000	95.003468
1584.000000	94.894767
1582.000000	94.739944
1580.000000	94.546962
1578.000000	94.329757
1576.000000	94.097531
1574.000000	93.840609
1572.000000	93.548734
1570.000000	93.219964
1568.000000	92.858949
1566.000000	92.472642
1564.000000	92.062163
1562.000000	91.627154
1560.000000	91.164283
1558.000000	90.667941
1556.000000	90.149180
1554.000000	89.622381
1552.000000	89.096496
1550.000000	88.580714
1548.000000	88.078653
1546.000000	87.587643
1544.000000	87.104982
1542.000000	86.637843
1540.000000	86.186463
1538.000000	85.752301
1536.000000	85.344093
1534.000000	84.954994
1532.000000	84.574714
1530.000000	84.205165
1528.000000	83.853609
1526.000000	83.519512
1524.000000	83.200570
1522.000000	82.901673
1520.000000	82.621163
1518.000000	82.349665
1516.000000	82.092454
1514.000000	81.863379
1512.000000	81.664355
1510.000000	81.494635
1508.000000	81.356832
1506.000000	81.249542
1504.000000	81.174682
1502.000000	81.135854
1500.000000	81.132674
1498.000000	81.161097
1496.000000	81.217859
1494.000000	81.299526
1492.000000	81.404051
1490.000000	81.529155
1488.000000	81.667226
1486.000000	81.815290
1484.000000	81.970288
1482.000000	82.125197
1480.000000	82.274864
1478.000000	82.416154
1476.000000	82.540123
1474.000000	82.636905
1472.000000	82.703854
1470.000000	82.744447
1468.000000	82.762344
1466.000000	82.761069
1464.000000	82.742184
1462.000000	82.706013
1460.000000	82.656624
1458.000000	82.598860
1456.000000	82.536632
1454.000000	82.476969
1452.000000	82.421478
1450.000000	82.367657
1448.000000	82.310904
1446.000000	82.250764
1444.000000	82.195902
1442.000000	82.154464
1440.000000	82.127191
1438.000000	82.111242
1436.000000	82.104572
1434.000000	82.107160
1432.000000	82.128051
1430.000000	82.175268
1428.000000	82.251860
1426.000000	82.361370
1424.000000	82.513760
1422.000000	82.720743
1420.000000	82.986196
1418.000000	83.309356
1416.000000	83.685947
1414.000000	84.113802
1412.000000	84.591568
1410.000000	85.114105
1408.000000	85.668446
1406.000000	86.235384
1404.000000	86.801191
1402.000000	87.360819
1400.000000	87.911298
1398.000000	88.447460
1396.000000	88.964048
1394.000000	89.455721
1392.000000	89.916708
1390.000000	90.352041
1388.000000	90.770259
1386.000000	91.173416
1384.000000	91.564586
1382.000000	91.947776
1380.000000	92.318371
1378.000000	92.669986
1376.000000	93.001534
1374.000000	93.309755
1372.000000	93.590717
1370.000000	93.846352
1368.000000	94.076266
1366.000000	94.277035
1364.000000	94.452916
1362.000000	94.613273
1360.000000	94.762497
1358.000000	94.903203
1356.000000	95.040311
1354.000000	95.175889
1352.000000	95.308275
1350.000000	95.436909
1348.000000	95.562260
1346.000000	95.682548
1344.000000	95.796317
1342.000000	95.905887
1340.000000	96.011563
1338.000000	96.108990
1336.000000	96.196384
1334.000000	96.274588
1332.000000	96.343677
1330.000000	96.405696
1328.000000	96.465583
1326.000000	96.525936
1324.000000	96.585585
1322.000000	96.645008
1320.000000	96.705941
1318.000000	96.769934
1316.000000	96.838738
1314.000000	96.909025
1312.000000	96.972856
1310.000000	97.025971
1308.000000	97.069444
1306.000000	97.104655
1304.000000	97.132738
1302.000000	97.155497
1300.000000	97.170764
1298.000000	97.175726
1296.000000	97.176752
1294.000000	97.180830
1292.000000	97.187638
1290.000000	97.195574
1288.000000	97.202916
1286.000000	97.208757
1284.000000	97.216938
1282.000000	97.234313
1280.000000	97.260433
1278.000000	97.287116
1276.000000	97.308452
1274.000000	97.321530
1272.000000	97.327082
1270.000000	97.328889
1268.000000	97.325781
1266.000000	97.310979
1264.000000	97.281005
1262.000000	97.240066
1260.000000	97.195658
1258.000000	97.155332
1256.000000	97.121618
1254.000000	97.089684
1252.000000	97.056760
1250.000000	97.026771
1248.000000	97.002873
1246.000000	96.981962
1244.000000	96.958215
1242.000000	96.926724
1240.000000	96.882434
1238.000000	96.822011
1236.000000	96.743027
1234.000000	96.637959
1232.000000	96.498406
1230.000000	96.321083
1228.000000	96.102868
1226.000000	95.836660
1224.000000	95.517749
1222.000000	95.150048
1220.000000	94.742749
1218.000000	94.307311
1216.000000	93.855482
1214.000000	93.395504
1212.000000	92.933916
1210.000000	92.481298
1208.000000	92.047938
1206.000000	91.636734
1204.000000	91.245908
1202.000000	90.872150
1200.000000	90.514684
1198.000000	90.175911
1196.000000	89.854539
1194.000000	89.549113
1192.000000	89.265058
1190.000000	89.008388
1188.000000	88.778655
1186.000000	88.572585
1184.000000	88.386205
1182.000000	88.213165
1180.000000	88.051860
1178.000000	87.903683
1176.000000	87.759785
1174.000000	87.605697
1172.000000	87.438372
1170.000000	87.264164
1168.000000	87.084662
1166.000000	86.900514
1164.000000	86.714895
1162.000000	86.523689
1160.000000	86.323437
1158.000000	86.124867
1156.000000	85.938565
1154.000000	85.760342
1152.000000	85.585652
1150.000000	85.419874
1148.000000	85.263390
1146.000000	85.111514
1144.000000	84.965919
1142.000000	84.824837
1140.000000	84.681960
1138.000000	84.535416
1136.000000	84.379167
1134.000000	84.202121
1132.000000	84.001073
1130.000000	83.781929
1128.000000	83.553726
1126.000000	83.321101
1124.000000	83.081301
1122.000000	82.830515
1120.000000	82.574301
1118.000000	82.323304
1116.000000	82.079927
1114.000000	81.844569
1112.000000	81.618561
1110.000000	81.399353
1108.000000	81.193239
1106.000000	81.015250
1104.000000	80.871310
1102.000000	80.766397
1100.000000	80.714707
1098.000000	80.723867
1096.000000	80.793386
1094.000000	80.927199
1092.000000	81.128150
1090.000000	81.392988
1088.000000	81.719238
1086.000000	82.102274
1084.000000	82.527396
1082.000000	82.976237
1080.000000	83.437581
1078.000000	83.902626
1076.000000	84.362302
1074.000000	84.811150
1072.000000	85.241607
1070.000000	85.643067
1068.000000	86.012045
1066.000000	86.353983
1064.000000	86.672390
1062.000000	86.966345
1060.000000	87.235918
1058.000000	87.478444
1056.000000	87.690733
1054.000000	87.879643
1052.000000	88.055678
1050.000000	88.219555
1048.000000	88.368269
1046.000000	88.507973
1044.000000	88.647481
1042.000000	88.788606
1040.000000	88.931950
1038.000000	89.075674
1036.000000	89.214763
1034.000000	89.349843
1032.000000	89.481461
1030.000000	89.600821
1028.000000	89.696653
1026.000000	89.766729
1024.000000	89.816740
1022.000000	89.851973
1020.000000	89.873308
1018.000000	89.877594
1016.000000	89.867116
1014.000000	89.854844
1012.000000	89.854050
1010.000000	89.867885
1008.000000	89.892011
1006.000000	89.923221
1004.000000	89.961304
1002.000000	90.009016
1000.000000	90.068848
998.000000	90.137356
996.000000	90.207936
994.000000	90.276801
992.000000	90.343663
990.000000	90.406973
988.000000	90.463659
986.000000	90.514317
984.000000	90.562434
982.000000	90.608175
980.000000	90.647753
978.000000	90.679035
976.000000	90.703165
974.000000	90.724213
972.000000	90.748895
970.000000	90.779784
968.000000	90.811058
966.000000	90.835740
964.000000	90.852710
962.000000	90.865621
960.000000	90.883635
958.000000	90.910588
956.000000	90.940138
954.000000	90.971493
952.000000	91.010689
950.000000	91.061602
948.000000	91.127443
946.000000	91.211517
944.000000	91.307564
942.000000	91.403987
940.000000	91.496606
938.000000	91.583526
936.000000	91.659592
934.000000	91.721992
932.000000	91.771936
930.000000	91.811278
928.000000	91.843774
926.000000	91.874700
924.000000	91.908290
922.000000	91.948370
920.000000	91.996814
918.000000	92.051638
916.000000	92.113059
914.000000	92.185260
912.000000	92.263793
910.000000	92.338492
908.000000	92.406299
906.000000	92.468825
904.000000	92.525835
902.000000	92.573046
900.000000	92.604306
898.000000	92.610481
896.000000	92.582560
894.000000	92.523530
892.000000	92.441159
890.000000	92.328536
888.000000	92.170474
886.000000	91.969071
884.000000	91.739505
882.000000	91.489867
880.000000	91.232794
878.000000	90.987619
876.000000	90.768707
874.000000	90.604389
872.000000	90.540393
870.000000	90.603454
868.000000	90.798021
866.000000	91.128631
864.000000	91.594164
862.000000	92.172936
860.000000	92.828083
858.000000	93.521621
856.000000	94.211234
854.000000	94.853266
852.000000	95.417378
850.000000	95.893306
848.000000	96.282394
846.000000	96.585010
844.000000	96.811306
842.000000	96.979122
840.000000	97.097597
838.000000	97.178990
836.000000	97.242905
834.000000	97.294347
832.000000	97.321939
830.000000	97.319981
828.000000	97.295396
826.000000	97.259491
824.000000	97.215521
822.000000	97.156675
820.000000	97.075519
818.000000	96.975586
816.000000	96.872132
814.000000	96.770803
812.000000	96.664582
810.000000	96.541088
808.000000	96.387678
806.000000	96.201366
804.000000	95.994261
802.000000	95.785121
800.000000	95.578352
798.000000	95.373161
796.000000	95.180462
794.000000	95.011454
792.000000	94.872725
790.000000	94.762997
788.000000	94.673206
786.000000	94.599601
784.000000	94.544144
782.000000	94.507286
780.000000	94.476189
778.000000	94.431827
776.000000	94.366480
774.000000	94.287879
772.000000	94.213854
770.000000	94.144016
768.000000	94.053325
766.000000	93.928838
764.000000	93.779493
762.000000	93.612499
760.000000	93.432777
758.000000	93.247830
756.000000	93.047381
754.000000	92.818098
752.000000	92.566228
750.000000	92.293481
748.000000	91.998407
746.000000	91.702032
744.000000	91.439442
742.000000	91.235657
740.000000	91.097604
738.000000	91.035508
736.000000	91.079815
734.000000	91.267923
732.000000	91.584878
730.000000	91.950165
728.000000	92.286882
726.000000	92.570923
724.000000	92.816050
722.000000	93.009279
720.000000	93.147783
718.000000	93.270793
716.000000	93.378027
714.000000	93.494002
712.000000	93.716784
710.000000	94.105931
708.000000	94.599611
706.000000	95.191937
704.000000	95.918283
702.000000	96.667989
700.000000	97.395016
